TrialIndex,Condition,TrialType,fix_duration,stim_duration,stimPicLeft,stimPicRight,stimPicMid,Ans,fixStart,stimStart,keyResp,resp,respCORR,respRT,IDNO,Run
0,ZeroBack,NoGo,1.7550690257394217,1.2449309742605783,c:\Users\Ian\Documents\GitHub\THINCLabTestRepo\Tasks\taskScripts//resources//ZeroBack_Task//stimuli//triangle.png,c:\Users\Ian\Documents\GitHub\THINCLabTestRepo\Tasks\taskScripts//resources//ZeroBack_Task//stimuli//square.png,,NA,15.754771599982632,17.571048299985705,None,None,,nan,001,1
1,ZeroBack,NoGo,1.9722452435761166,1.0277547564238834,c:\Users\Ian\Documents\GitHub\THINCLabTestRepo\Tasks\taskScripts//resources//ZeroBack_Task//stimuli//triangle.png,c:\Users\Ian\Documents\GitHub\THINCLabTestRepo\Tasks\taskScripts//resources//ZeroBack_Task//stimuli//circle.png,,NA,18.82508680000319,20.82705540000461,None,None,,nan,001,1
2,ZeroBack,NoGo,1.593859586774235,1.406140413225765,c:\Users\Ian\Documents\GitHub\THINCLabTestRepo\Tasks\taskScripts//resources//ZeroBack_Task//stimuli//square.png,c:\Users\Ian\Documents\GitHub\THINCLabTestRepo\Tasks\taskScripts//resources//ZeroBack_Task//stimuli//triangle.png,,NA,21.867238999984693,23.49840789998416,None,None,,nan,001,1
3,ZeroBack,ZeroBack,1.9111569944278903,4.08884300557211,c:\Users\Ian\Documents\GitHub\THINCLabTestRepo\Tasks\taskScripts//resources//ZeroBack_Task//stimuli//square.png,c:\Users\Ian\Documents\GitHub\THINCLabTestRepo\Tasks\taskScripts//resources//ZeroBack_Task//stimuli//circle.png,c:\Users\Ian\Documents\GitHub\THINCLabTestRepo\Tasks\taskScripts//resources//ZeroBack_Task//stimuli//square.png,left,24.91648359998362,26.86272979999194,left,left,1,0.7475972000102047,001,1
4,ZeroBack,NoGo,2.0911534350013037,0.9088465649986963,c:\Users\Ian\Documents\GitHub\THINCLabTestRepo\Tasks\taskScripts//resources//ZeroBack_Task//stimuli//triangle.png,c:\Users\Ian\Documents\GitHub\THINCLabTestRepo\Tasks\taskScripts//resources//ZeroBack_Task//stimuli//square.png,,NA,30.96340509998845,33.09232639998663,None,None,,nan,001,1
5,ZeroBack,NoGo,1.5305899830335536,1.4694100169664464,c:\Users\Ian\Documents\GitHub\THINCLabTestRepo\Tasks\taskScripts//resources//ZeroBack_Task//stimuli//circle.png,c:\Users\Ian\Documents\GitHub\THINCLabTestRepo\Tasks\taskScripts//resources//ZeroBack_Task//stimuli//square.png,,NA,34.012169800000265,35.58513469999889,None,None,,nan,001,1
6,ZeroBack,NoGo,2.4391491627785107,0.5608508372214893,c:\Users\Ian\Documents\GitHub\THINCLabTestRepo\Tasks\taskScripts//resources//ZeroBack_Task//stimuli//square.png,c:\Users\Ian\Documents\GitHub\THINCLabTestRepo\Tasks\taskScripts//resources//ZeroBack_Task//stimuli//triangle.png,,NA,37.062155799998436,39.53759920000448,None,None,,nan,001,1
7,ZeroBack,NoGo,2.4690406502940996,0.5309593497059004,c:\Users\Ian\Documents\GitHub\THINCLabTestRepo\Tasks\taskScripts//resources//ZeroBack_Task//stimuli//circle.png,c:\Users\Ian\Documents\GitHub\THINCLabTestRepo\Tasks\taskScripts//resources//ZeroBack_Task//stimuli//square.png,,NA,40.11028140000417,42.612682600010885,None,None,,nan,001,1
8,ZeroBack,NoGo,2.0276294143623983,0.9723705856376017,c:\Users\Ian\Documents\GitHub\THINCLabTestRepo\Tasks\taskScripts//resources//ZeroBack_Task//stimuli//square.png,c:\Users\Ian\Documents\GitHub\THINCLabTestRepo\Tasks\taskScripts//resources//ZeroBack_Task//stimuli//circle.png,,NA,43.15826299999026,45.21817469998496,None,None,,nan,001,1
9,ZeroBack,NoGo,1.8457004147087526,1.1542995852912474,c:\Users\Ian\Documents\GitHub\THINCLabTestRepo\Tasks\taskScripts//resources//ZeroBack_Task//stimuli//circle.png,c:\Users\Ian\Documents\GitHub\THINCLabTestRepo\Tasks\taskScripts//resources//ZeroBack_Task//stimuli//square.png,,NA,46.202106999990065,48.0776152999897,None,None,,nan,001,1
10,ZeroBack,NoGo,2.2609477375418203,0.7390522624581797,c:\Users\Ian\Documents\GitHub\THINCLabTestRepo\Tasks\taskScripts//resources//ZeroBack_Task//stimuli//square.png,c:\Users\Ian\Documents\GitHub\THINCLabTestRepo\Tasks\taskScripts//resources//ZeroBack_Task//stimuli//circle.png,,NA,49.24163859998225,51.53045620000921,None,None,,nan,001,1
11,ZeroBack,NoGo,1.9161799388943461,1.0838200611056539,c:\Users\Ian\Documents\GitHub\THINCLabTestRepo\Tasks\taskScripts//resources//ZeroBack_Task//stimuli//triangle.png,c:\Users\Ian\Documents\GitHub\THINCLabTestRepo\Tasks\taskScripts//resources//ZeroBack_Task//stimuli//square.png,,NA,52.2765003000095,54.224876599997515,None,None,,nan,001,1
12,ZeroBack,NoGo,1.6859062658947177,1.3140937341052823,c:\Users\Ian\Documents\GitHub\THINCLabTestRepo\Tasks\taskScripts//resources//ZeroBack_Task//stimuli//square.png,c:\Users\Ian\Documents\GitHub\THINCLabTestRepo\Tasks\taskScripts//resources//ZeroBack_Task//stimuli//triangle.png,,NA,55.31906780001009,57.044006899988744,None,None,,nan,001,1
13,ZeroBack,NoGo,1.6208899598058064,1.3791100401941936,c:\Users\Ian\Documents\GitHub\THINCLabTestRepo\Tasks\taskScripts//resources//ZeroBack_Task//stimuli//square.png,c:\Users\Ian\Documents\GitHub\THINCLabTestRepo\Tasks\taskScripts//resources//ZeroBack_Task//stimuli//triangle.png,,NA,58.36696749998373,60.014618099987274,None,None,,nan,001,1
14,ZeroBack,NoGo,1.8033685109329176,1.1966314890670824,c:\Users\Ian\Documents\GitHub\THINCLabTestRepo\Tasks\taskScripts//resources//ZeroBack_Task//stimuli//triangle.png,c:\Users\Ian\Documents\GitHub\THINCLabTestRepo\Tasks\taskScripts//resources//ZeroBack_Task//stimuli//square.png,,NA,61.40889089999837,63.247821199998725,None,None,,nan,001,1
15,ZeroBack,NoGo,2.3461974184283125,0.6538025815716875,c:\Users\Ian\Documents\GitHub\THINCLabTestRepo\Tasks\taskScripts//resources//ZeroBack_Task//stimuli//triangle.png,c:\Users\Ian\Documents\GitHub\THINCLabTestRepo\Tasks\taskScripts//resources//ZeroBack_Task//stimuli//square.png,,NA,64.46553319998202,66.84839629998896,None,None,,nan,001,1
16,ZeroBack,NoGo,2.0890022579825516,0.9109977420174484,c:\Users\Ian\Documents\GitHub\THINCLabTestRepo\Tasks\taskScripts//resources//ZeroBack_Task//stimuli//triangle.png,c:\Users\Ian\Documents\GitHub\THINCLabTestRepo\Tasks\taskScripts//resources//ZeroBack_Task//stimuli//square.png,,NA,67.51267510000616,69.63279730000068,None,None,,nan,001,1
17,ZeroBack,NoGo,1.7427399735430678,1.2572600264569322,c:\Users\Ian\Documents\GitHub\THINCLabTestRepo\Tasks\taskScripts//resources//ZeroBack_Task//stimuli//circle.png,c:\Users\Ian\Documents\GitHub\THINCLabTestRepo\Tasks\taskScripts//resources//ZeroBack_Task//stimuli//square.png,,NA,70.55512830000953,72.32825479999883,None,None,,nan,001,1
18,ZeroBack,NoGo,2.164743521608467,0.8352564783915328,c:\Users\Ian\Documents\GitHub\THINCLabTestRepo\Tasks\taskScripts//resources//ZeroBack_Task//stimuli//circle.png,c:\Users\Ian\Documents\GitHub\THINCLabTestRepo\Tasks\taskScripts//resources//ZeroBack_Task//stimuli//triangle.png,,NA,73.59804489999078,75.79330530000152,None,None,,nan,001,1
19,ZeroBack,NoGo,2.1637578048439807,0.8362421951560193,c:\Users\Ian\Documents\GitHub\THINCLabTestRepo\Tasks\taskScripts//resources//ZeroBack_Task//stimuli//square.png,c:\Users\Ian\Documents\GitHub\THINCLabTestRepo\Tasks\taskScripts//resources//ZeroBack_Task//stimuli//triangle.png,,NA,76.63847760000499,78.83566589999828,None,None,,nan,001,1
20,ZeroBack,NoGo,2.020938417613145,0.9790615823868549,c:\Users\Ian\Documents\GitHub\THINCLabTestRepo\Tasks\taskScripts//resources//ZeroBack_Task//stimuli//triangle.png,c:\Users\Ian\Documents\GitHub\THINCLabTestRepo\Tasks\taskScripts//resources//ZeroBack_Task//stimuli//circle.png,,NA,79.68793449999066,81.73799160000635,None,None,,nan,001,1
21,ZeroBack,NoGo,1.9896935204622581,1.0103064795377419,c:\Users\Ian\Documents\GitHub\THINCLabTestRepo\Tasks\taskScripts//resources//ZeroBack_Task//stimuli//triangle.png,c:\Users\Ian\Documents\GitHub\THINCLabTestRepo\Tasks\taskScripts//resources//ZeroBack_Task//stimuli//square.png,,NA,82.73494409999694,84.75910689999,None,None,,nan,001,1
