TrialIndex,Condition,TrialType,fix_duration,stim_duration,stimPicLeft,stimPicRight,stimPicMid,Ans,fixStart,stimStart,keyResp,resp,respCORR,respRT,IDNO,Run
0,OneBack,NoGo,1.7550690257394217,1.2449309742605783,c:\Users\Ian\Documents\GitHub\THINCLabTestRepo\Tasks\taskScripts//resources//ZeroBack_Task//stimuli//triangle.png,c:\Users\Ian\Documents\GitHub\THINCLabTestRepo\Tasks\taskScripts//resources//ZeroBack_Task//stimuli//square.png,,NA,2559.295205000002,2561.081747199991,None,None,,nan,001,1
1,OneBack,NoGo,1.9722452435761166,1.0277547564238834,c:\Users\Ian\Documents\GitHub\THINCLabTestRepo\Tasks\taskScripts//resources//ZeroBack_Task//stimuli//triangle.png,c:\Users\Ian\Documents\GitHub\THINCLabTestRepo\Tasks\taskScripts//resources//ZeroBack_Task//stimuli//circle.png,,NA,2562.3368445000087,2564.3399270999944,None,None,,nan,001,1
2,OneBack,NoGo,1.593859586774235,1.406140413225765,c:\Users\Ian\Documents\GitHub\THINCLabTestRepo\Tasks\taskScripts//resources//ZeroBack_Task//stimuli//square.png,c:\Users\Ian\Documents\GitHub\THINCLabTestRepo\Tasks\taskScripts//resources//ZeroBack_Task//stimuli//triangle.png,,NA,2565.378659500013,2567.000222500006,None,None,,nan,001,1
4,OneBack,NoGo,2.1958328667684435,0.8041671332315565,c:\Users\Ian\Documents\GitHub\THINCLabTestRepo\Tasks\taskScripts//resources//ZeroBack_Task//stimuli//triangle.png,c:\Users\Ian\Documents\GitHub\THINCLabTestRepo\Tasks\taskScripts//resources//ZeroBack_Task//stimuli//square.png,,NA,2568.421240099997,2570.6453833999985,None,None,,nan,001,1
5,OneBack,NoGo,2.0911534350013037,0.9088465649986963,c:\Users\Ian\Documents\GitHub\THINCLabTestRepo\Tasks\taskScripts//resources//ZeroBack_Task//stimuli//circle.png,c:\Users\Ian\Documents\GitHub\THINCLabTestRepo\Tasks\taskScripts//resources//ZeroBack_Task//stimuli//triangle.png,,NA,2571.4563318,2573.591485599987,None,None,,nan,001,1
6,OneBack,NoGo,1.5305899830335536,1.4694100169664464,c:\Users\Ian\Documents\GitHub\THINCLabTestRepo\Tasks\taskScripts//resources//ZeroBack_Task//stimuli//square.png,c:\Users\Ian\Documents\GitHub\THINCLabTestRepo\Tasks\taskScripts//resources//ZeroBack_Task//stimuli//triangle.png,,NA,2574.511850699986,2576.069312000007,None,None,,nan,001,1
3,OneBack,OneBack,2.3399755638364526,3.6600244361635474,?,?,c:\Users\Ian\Documents\GitHub\THINCLabTestRepo\Tasks\taskScripts//resources//ZeroBack_Task//stimuli//triangle.png,right,2577.5463014999987,2579.9070947,None,None,0,nan,001,1
7,OneBack,NoGo,2.4391491627785107,0.5608508372214893,c:\Users\Ian\Documents\GitHub\THINCLabTestRepo\Tasks\taskScripts//resources//ZeroBack_Task//stimuli//triangle.png,c:\Users\Ian\Documents\GitHub\THINCLabTestRepo\Tasks\taskScripts//resources//ZeroBack_Task//stimuli//circle.png,,NA,2583.581240200001,2586.049266599992,None,None,,nan,001,1
8,OneBack,NoGo,2.4690406502940996,0.5309593497059004,c:\Users\Ian\Documents\GitHub\THINCLabTestRepo\Tasks\taskScripts//resources//ZeroBack_Task//stimuli//square.png,c:\Users\Ian\Documents\GitHub\THINCLabTestRepo\Tasks\taskScripts//resources//ZeroBack_Task//stimuli//triangle.png,,NA,2586.622070000012,2589.1258189000073,None,None,,nan,001,1
10,OneBack,NoGo,1.8457004147087526,1.1542995852912474,c:\Users\Ian\Documents\GitHub\THINCLabTestRepo\Tasks\taskScripts//resources//ZeroBack_Task//stimuli//triangle.png,c:\Users\Ian\Documents\GitHub\THINCLabTestRepo\Tasks\taskScripts//resources//ZeroBack_Task//stimuli//square.png,,NA,2589.6639656999905,2591.5427214000083,None,None,,nan,001,1
9,OneBack,OneBack,1.7914441215435972,4.208555878456403,?,?,c:\Users\Ian\Documents\GitHub\THINCLabTestRepo\Tasks\taskScripts//resources//ZeroBack_Task//stimuli//triangle.png,right,2592.708270400006,2594.5184814000095,None,None,0,nan,001,1
11,OneBack,NoGo,2.2609477375418203,0.7390522624581797,c:\Users\Ian\Documents\GitHub\THINCLabTestRepo\Tasks\taskScripts//resources//ZeroBack_Task//stimuli//square.png,c:\Users\Ian\Documents\GitHub\THINCLabTestRepo\Tasks\taskScripts//resources//ZeroBack_Task//stimuli//triangle.png,,NA,2598.7416542999854,2601.035376899992,None,None,,nan,001,1
12,OneBack,NoGo,1.9161799388943461,1.0838200611056539,c:\Users\Ian\Documents\GitHub\THINCLabTestRepo\Tasks\taskScripts//resources//ZeroBack_Task//stimuli//circle.png,c:\Users\Ian\Documents\GitHub\THINCLabTestRepo\Tasks\taskScripts//resources//ZeroBack_Task//stimuli//square.png,,NA,2601.7825841000013,2603.729881999985,None,None,,nan,001,1
13,OneBack,NoGo,1.6859062658947177,1.3140937341052823,c:\Users\Ian\Documents\GitHub\THINCLabTestRepo\Tasks\taskScripts//resources//ZeroBack_Task//stimuli//square.png,c:\Users\Ian\Documents\GitHub\THINCLabTestRepo\Tasks\taskScripts//resources//ZeroBack_Task//stimuli//circle.png,,NA,2604.8241984999913,2606.5422775000043,None,None,,nan,001,1
29,OneBack,OneBack,1.7216527261213603,4.27834727387864,?,?,c:\Users\Ian\Documents\GitHub\THINCLabTestRepo\Tasks\taskScripts//resources//ZeroBack_Task//stimuli//triangle.png,right,2607.8666321999917,2609.609127500007,None,None,0,nan,001,1
14,OneBack,NoGo,1.6208899598058064,1.3791100401941936,c:\Users\Ian\Documents\GitHub\THINCLabTestRepo\Tasks\taskScripts//resources//ZeroBack_Task//stimuli//square.png,c:\Users\Ian\Documents\GitHub\THINCLabTestRepo\Tasks\taskScripts//resources//ZeroBack_Task//stimuli//circle.png,,NA,2613.8999389999954,2615.547595399985,None,None,,nan,001,1
15,OneBack,NoGo,1.8033685109329176,1.1966314890670824,c:\Users\Ian\Documents\GitHub\THINCLabTestRepo\Tasks\taskScripts//resources//ZeroBack_Task//stimuli//circle.png,c:\Users\Ian\Documents\GitHub\THINCLabTestRepo\Tasks\taskScripts//resources//ZeroBack_Task//stimuli//square.png,,NA,2616.935482700006,2618.7718513,None,None,,nan,001,1
16,OneBack,NoGo,2.3461974184283125,0.6538025815716875,c:\Users\Ian\Documents\GitHub\THINCLabTestRepo\Tasks\taskScripts//resources//ZeroBack_Task//stimuli//circle.png,c:\Users\Ian\Documents\GitHub\THINCLabTestRepo\Tasks\taskScripts//resources//ZeroBack_Task//stimuli//square.png,,NA,2619.976404899993,2622.3532884999877,None,None,,nan,001,1
17,OneBack,NoGo,2.0890022579825516,0.9109977420174484,c:\Users\Ian\Documents\GitHub\THINCLabTestRepo\Tasks\taskScripts//resources//ZeroBack_Task//stimuli//circle.png,c:\Users\Ian\Documents\GitHub\THINCLabTestRepo\Tasks\taskScripts//resources//ZeroBack_Task//stimuli//square.png,,NA,2623.019375600008,2625.1381204999925,None,None,,nan,001,1
33,OneBack,OneBack,2.2068542267710534,3.7931457732289466,?,?,c:\Users\Ian\Documents\GitHub\THINCLabTestRepo\Tasks\taskScripts//resources//ZeroBack_Task//stimuli//circle.png,left,2626.059985700005,2628.2836008000013,None,None,0,nan,001,1
18,OneBack,NoGo,1.7427399735430678,1.2572600264569322,c:\Users\Ian\Documents\GitHub\THINCLabTestRepo\Tasks\taskScripts//resources//ZeroBack_Task//stimuli//triangle.png,c:\Users\Ian\Documents\GitHub\THINCLabTestRepo\Tasks\taskScripts//resources//ZeroBack_Task//stimuli//square.png,,NA,2632.0899096000066,2633.861326699989,None,None,,nan,001,1
19,OneBack,NoGo,2.164743521608467,0.8352564783915328,c:\Users\Ian\Documents\GitHub\THINCLabTestRepo\Tasks\taskScripts//resources//ZeroBack_Task//stimuli//triangle.png,c:\Users\Ian\Documents\GitHub\THINCLabTestRepo\Tasks\taskScripts//resources//ZeroBack_Task//stimuli//circle.png,,NA,2635.130185999995,2637.327554299991,None,None,,nan,001,1
20,OneBack,NoGo,2.1637578048439807,0.8362421951560193,c:\Users\Ian\Documents\GitHub\THINCLabTestRepo\Tasks\taskScripts//resources//ZeroBack_Task//stimuli//square.png,c:\Users\Ian\Documents\GitHub\THINCLabTestRepo\Tasks\taskScripts//resources//ZeroBack_Task//stimuli//circle.png,,NA,2638.1715168000082,2640.3617940999975,None,None,,nan,001,1
21,OneBack,NoGo,2.020938417613145,0.9790615823868549,c:\Users\Ian\Documents\GitHub\THINCLabTestRepo\Tasks\taskScripts//resources//ZeroBack_Task//stimuli//circle.png,c:\Users\Ian\Documents\GitHub\THINCLabTestRepo\Tasks\taskScripts//resources//ZeroBack_Task//stimuli//triangle.png,,NA,2641.205931500008,2643.2581339000026,None,None,,nan,001,1
22,OneBack,NoGo,1.9896935204622581,1.0103064795377419,c:\Users\Ian\Documents\GitHub\THINCLabTestRepo\Tasks\taskScripts//resources//ZeroBack_Task//stimuli//circle.png,c:\Users\Ian\Documents\GitHub\THINCLabTestRepo\Tasks\taskScripts//resources//ZeroBack_Task//stimuli//square.png,,NA,2644.2476906999946,2646.2644351999916,None,None,,nan,001,1
40,OneBack,OneBack,1.9849847585661087,4.0150152414338915,?,?,c:\Users\Ian\Documents\GitHub\THINCLabTestRepo\Tasks\taskScripts//resources//ZeroBack_Task//stimuli//square.png,right,2647.282412600005,2649.2908954999875,None,None,0,nan,001,1
