TrialIndex,Condition,TrialType,fix_duration,stim_duration,stimPicLeft,stimPicRight,stimPicMid,Ans,fixStart,stimStart,keyResp,resp,respCORR,respRT,IDNO,Run
0,OneBack,NoGo,1.7550690257394217,1.2449309742605783,c:\Users\Ian\Documents\GitHub\THINCLabTestRepo\Tasks\taskScripts//resources//ZeroBack_Task//stimuli//triangle.png,c:\Users\Ian\Documents\GitHub\THINCLabTestRepo\Tasks\taskScripts//resources//ZeroBack_Task//stimuli//square.png,,NA,7.633535599990864,9.426483499992173,None,None,,nan,001,1
1,OneBack,NoGo,1.9722452435761166,1.0277547564238834,c:\Users\Ian\Documents\GitHub\THINCLabTestRepo\Tasks\taskScripts//resources//ZeroBack_Task//stimuli//triangle.png,c:\Users\Ian\Documents\GitHub\THINCLabTestRepo\Tasks\taskScripts//resources//ZeroBack_Task//stimuli//circle.png,,NA,10.682083699997747,12.705561999988277,None,None,,nan,001,1
2,OneBack,NoGo,1.593859586774235,1.406140413225765,c:\Users\Ian\Documents\GitHub\THINCLabTestRepo\Tasks\taskScripts//resources//ZeroBack_Task//stimuli//square.png,c:\Users\Ian\Documents\GitHub\THINCLabTestRepo\Tasks\taskScripts//resources//ZeroBack_Task//stimuli//triangle.png,,NA,13.746350199988228,15.372870699997293,None,None,,nan,001,1
4,OneBack,NoGo,2.1958328667684435,0.8041671332315565,c:\Users\Ian\Documents\GitHub\THINCLabTestRepo\Tasks\taskScripts//resources//ZeroBack_Task//stimuli//triangle.png,c:\Users\Ian\Documents\GitHub\THINCLabTestRepo\Tasks\taskScripts//resources//ZeroBack_Task//stimuli//square.png,,NA,16.78686480000033,19.01351849999628,None,None,,nan,001,1
5,OneBack,NoGo,2.0911534350013037,0.9088465649986963,c:\Users\Ian\Documents\GitHub\THINCLabTestRepo\Tasks\taskScripts//resources//ZeroBack_Task//stimuli//circle.png,c:\Users\Ian\Documents\GitHub\THINCLabTestRepo\Tasks\taskScripts//resources//ZeroBack_Task//stimuli//triangle.png,,NA,19.83592659998976,22.00802969999495,None,None,,nan,001,1
6,OneBack,NoGo,1.5305899830335536,1.4694100169664464,c:\Users\Ian\Documents\GitHub\THINCLabTestRepo\Tasks\taskScripts//resources//ZeroBack_Task//stimuli//square.png,c:\Users\Ian\Documents\GitHub\THINCLabTestRepo\Tasks\taskScripts//resources//ZeroBack_Task//stimuli//triangle.png,,NA,22.92517119999684,24.483108799991896,None,None,,nan,001,1
3,OneBack,OneBack,2.3399755638364526,3.6600244361635474,?,?,c:\Users\Ian\Documents\GitHub\THINCLabTestRepo\Tasks\taskScripts//resources//ZeroBack_Task//stimuli//square.png,right,25.959882999988622,28.32190019999689,left,left,0,1.4234974999999395,001,1
7,OneBack,NoGo,2.4391491627785107,0.5608508372214893,c:\Users\Ian\Documents\GitHub\THINCLabTestRepo\Tasks\taskScripts//resources//ZeroBack_Task//stimuli//triangle.png,c:\Users\Ian\Documents\GitHub\THINCLabTestRepo\Tasks\taskScripts//resources//ZeroBack_Task//stimuli//circle.png,,NA,32.001071499995305,34.47023099999933,None,None,,nan,001,1
8,OneBack,NoGo,2.4690406502940996,0.5309593497059004,c:\Users\Ian\Documents\GitHub\THINCLabTestRepo\Tasks\taskScripts//resources//ZeroBack_Task//stimuli//square.png,c:\Users\Ian\Documents\GitHub\THINCLabTestRepo\Tasks\taskScripts//resources//ZeroBack_Task//stimuli//triangle.png,,NA,35.05274389999977,37.55322009998781,None,None,,nan,001,1
10,OneBack,NoGo,1.8457004147087526,1.1542995852912474,c:\Users\Ian\Documents\GitHub\THINCLabTestRepo\Tasks\taskScripts//resources//ZeroBack_Task//stimuli//triangle.png,c:\Users\Ian\Documents\GitHub\THINCLabTestRepo\Tasks\taskScripts//resources//ZeroBack_Task//stimuli//square.png,,NA,38.092335499997716,39.97061209999083,None,None,,nan,001,1
9,OneBack,OneBack,1.7914441215435972,4.208555878456403,?,?,c:\Users\Ian\Documents\GitHub\THINCLabTestRepo\Tasks\taskScripts//resources//ZeroBack_Task//stimuli//square.png,right,41.143873499997426,42.95431609998923,right,right,1,1.350488399999449,001,1
11,OneBack,NoGo,2.2609477375418203,0.7390522624581797,c:\Users\Ian\Documents\GitHub\THINCLabTestRepo\Tasks\taskScripts//resources//ZeroBack_Task//stimuli//square.png,c:\Users\Ian\Documents\GitHub\THINCLabTestRepo\Tasks\taskScripts//resources//ZeroBack_Task//stimuli//triangle.png,,NA,47.18202449999808,49.477330699999584,None,None,,nan,001,1
12,OneBack,NoGo,1.9161799388943461,1.0838200611056539,c:\Users\Ian\Documents\GitHub\THINCLabTestRepo\Tasks\taskScripts//resources//ZeroBack_Task//stimuli//circle.png,c:\Users\Ian\Documents\GitHub\THINCLabTestRepo\Tasks\taskScripts//resources//ZeroBack_Task//stimuli//square.png,,NA,50.232339299996966,52.2184314999904,None,None,,nan,001,1
13,OneBack,NoGo,1.6859062658947177,1.3140937341052823,c:\Users\Ian\Documents\GitHub\THINCLabTestRepo\Tasks\taskScripts//resources//ZeroBack_Task//stimuli//square.png,c:\Users\Ian\Documents\GitHub\THINCLabTestRepo\Tasks\taskScripts//resources//ZeroBack_Task//stimuli//circle.png,,NA,53.316456399988965,55.04300899998634,None,None,,nan,001,1
29,OneBack,OneBack,1.7216527261213603,4.27834727387864,?,?,c:\Users\Ian\Documents\GitHub\THINCLabTestRepo\Tasks\taskScripts//resources//ZeroBack_Task//stimuli//square.png,right,56.38143589999527,58.12086089998775,left,left,0,2.3059315999998944,001,1
14,OneBack,NoGo,1.6208899598058064,1.3791100401941936,c:\Users\Ian\Documents\GitHub\THINCLabTestRepo\Tasks\taskScripts//resources//ZeroBack_Task//stimuli//square.png,c:\Users\Ian\Documents\GitHub\THINCLabTestRepo\Tasks\taskScripts//resources//ZeroBack_Task//stimuli//circle.png,,NA,62.41135549999308,64.05910119999317,None,None,,nan,001,1
15,OneBack,NoGo,1.8033685109329176,1.1966314890670824,c:\Users\Ian\Documents\GitHub\THINCLabTestRepo\Tasks\taskScripts//resources//ZeroBack_Task//stimuli//circle.png,c:\Users\Ian\Documents\GitHub\THINCLabTestRepo\Tasks\taskScripts//resources//ZeroBack_Task//stimuli//square.png,,NA,65.45976909999445,67.29653859999962,None,None,,nan,001,1
16,OneBack,NoGo,2.3461974184283125,0.6538025815716875,c:\Users\Ian\Documents\GitHub\THINCLabTestRepo\Tasks\taskScripts//resources//ZeroBack_Task//stimuli//circle.png,c:\Users\Ian\Documents\GitHub\THINCLabTestRepo\Tasks\taskScripts//resources//ZeroBack_Task//stimuli//square.png,,NA,68.50960929998837,70.8856562999863,None,None,,nan,001,1
17,OneBack,NoGo,2.0890022579825516,0.9109977420174484,c:\Users\Ian\Documents\GitHub\THINCLabTestRepo\Tasks\taskScripts//resources//ZeroBack_Task//stimuli//circle.png,c:\Users\Ian\Documents\GitHub\THINCLabTestRepo\Tasks\taskScripts//resources//ZeroBack_Task//stimuli//square.png,,NA,71.55774879999808,73.71888760000002,None,None,,nan,001,1
33,OneBack,OneBack,2.2068542267710534,3.7931457732289466,?,?,c:\Users\Ian\Documents\GitHub\THINCLabTestRepo\Tasks\taskScripts//resources//ZeroBack_Task//stimuli//square.png,left,74.64124819998688,76.89325969999481,None,None,0,nan,001,1
18,OneBack,NoGo,1.7427399735430678,1.2572600264569322,c:\Users\Ian\Documents\GitHub\THINCLabTestRepo\Tasks\taskScripts//resources//ZeroBack_Task//stimuli//triangle.png,c:\Users\Ian\Documents\GitHub\THINCLabTestRepo\Tasks\taskScripts//resources//ZeroBack_Task//stimuli//square.png,,NA,80.7127027999959,82.48466909999843,None,None,,nan,001,1
