TrialIndex,Condition,TrialType,fix_duration,stim_duration,stimPicLeft,stimPicRight,stimPicMid,Ans,fixStart,stimStart,keyResp,resp,respCORR,respRT,IDNO,Run
0,ZeroBack,NoGo,2.423786291824652,0.5762137081753478,c:\Users\Adjunct\Documents\GitHub\THINCLabTestRepo\Tasks\taskScripts//resources//ZeroBack_Task//stimuli//square.png,c:\Users\Adjunct\Documents\GitHub\THINCLabTestRepo\Tasks\taskScripts//resources//ZeroBack_Task//stimuli//circle.png,,NA,262.22815610002726,264.6983901000349,None,None,,nan,001,1
1,ZeroBack,NoGo,1.7560878170910232,1.2439121829089768,c:\Users\Adjunct\Documents\GitHub\THINCLabTestRepo\Tasks\taskScripts//resources//ZeroBack_Task//stimuli//square.png,c:\Users\Adjunct\Documents\GitHub\THINCLabTestRepo\Tasks\taskScripts//resources//ZeroBack_Task//stimuli//triangle.png,,NA,265.2972715999931,267.1145149000222,None,None,,nan,001,1
3,ZeroBack,NoGo,2.2281615746559513,0.7718384253440487,c:\Users\Adjunct\Documents\GitHub\THINCLabTestRepo\Tasks\taskScripts//resources//ZeroBack_Task//stimuli//square.png,c:\Users\Adjunct\Documents\GitHub\THINCLabTestRepo\Tasks\taskScripts//resources//ZeroBack_Task//stimuli//triangle.png,,NA,268.3943364000297,270.6636674000183,None,None,,nan,001,1
4,ZeroBack,NoGo,2.1387199126550183,0.8612800873449817,c:\Users\Adjunct\Documents\GitHub\THINCLabTestRepo\Tasks\taskScripts//resources//ZeroBack_Task//stimuli//square.png,c:\Users\Adjunct\Documents\GitHub\THINCLabTestRepo\Tasks\taskScripts//resources//ZeroBack_Task//stimuli//circle.png,,NA,271.463797400007,273.66420930001186,None,None,,nan,001,1
6,ZeroBack,NoGo,2.209979364321898,0.7900206356781019,c:\Users\Adjunct\Documents\GitHub\THINCLabTestRepo\Tasks\taskScripts//resources//ZeroBack_Task//stimuli//square.png,c:\Users\Adjunct\Documents\GitHub\THINCLabTestRepo\Tasks\taskScripts//resources//ZeroBack_Task//stimuli//triangle.png,,NA,274.5477435000357,276.79819980001776,None,None,,nan,001,1
2,ZeroBack,ZeroBack,1.2763459995598092,4.723654000440191,c:\Users\Adjunct\Documents\GitHub\THINCLabTestRepo\Tasks\taskScripts//resources//ZeroBack_Task//stimuli//square.png,c:\Users\Adjunct\Documents\GitHub\THINCLabTestRepo\Tasks\taskScripts//resources//ZeroBack_Task//stimuli//triangle.png,c:\Users\Adjunct\Documents\GitHub\THINCLabTestRepo\Tasks\taskScripts//resources//ZeroBack_Task//stimuli//square.png,left,277.614236399997,278.9490264999913,left,left,1,1.2490701000206172,001,1
7,ZeroBack,NoGo,2.477183964961588,0.5228160350384119,c:\Users\Adjunct\Documents\GitHub\THINCLabTestRepo\Tasks\taskScripts//resources//ZeroBack_Task//stimuli//square.png,c:\Users\Adjunct\Documents\GitHub\THINCLabTestRepo\Tasks\taskScripts//resources//ZeroBack_Task//stimuli//triangle.png,,NA,283.71045250003226,286.2464480000199,None,None,,nan,001,1
8,ZeroBack,NoGo,2.1039282044989505,0.8960717955010495,c:\Users\Adjunct\Documents\GitHub\THINCLabTestRepo\Tasks\taskScripts//resources//ZeroBack_Task//stimuli//circle.png,c:\Users\Adjunct\Documents\GitHub\THINCLabTestRepo\Tasks\taskScripts//resources//ZeroBack_Task//stimuli//triangle.png,,NA,286.7972043000045,288.94771440001205,None,None,,nan,001,1
9,ZeroBack,NoGo,1.7911110749064263,1.2088889250935737,c:\Users\Adjunct\Documents\GitHub\THINCLabTestRepo\Tasks\taskScripts//resources//ZeroBack_Task//stimuli//square.png,c:\Users\Adjunct\Documents\GitHub\THINCLabTestRepo\Tasks\taskScripts//resources//ZeroBack_Task//stimuli//circle.png,,NA,289.86374940001406,291.6979546000366,None,None,,nan,001,1
11,ZeroBack,NoGo,1.9035416116810135,1.0964583883189865,c:\Users\Adjunct\Documents\GitHub\THINCLabTestRepo\Tasks\taskScripts//resources//ZeroBack_Task//stimuli//circle.png,c:\Users\Adjunct\Documents\GitHub\THINCLabTestRepo\Tasks\taskScripts//resources//ZeroBack_Task//stimuli//square.png,,NA,292.929558600008,294.8797256000107,None,None,,nan,001,1
5,ZeroBack,ZeroBack,2.2643374322064,3.7356625677936,c:\Users\Adjunct\Documents\GitHub\THINCLabTestRepo\Tasks\taskScripts//resources//ZeroBack_Task//stimuli//circle.png,c:\Users\Adjunct\Documents\GitHub\THINCLabTestRepo\Tasks\taskScripts//resources//ZeroBack_Task//stimuli//square.png,c:\Users\Adjunct\Documents\GitHub\THINCLabTestRepo\Tasks\taskScripts//resources//ZeroBack_Task//stimuli//circle.png,left,295.99687580001773,298.33118660002947,left,left,1,0.9828550000092946,001,1
12,ZeroBack,NoGo,1.8507688080798288,1.1492311919201712,c:\Users\Adjunct\Documents\GitHub\THINCLabTestRepo\Tasks\taskScripts//resources//ZeroBack_Task//stimuli//square.png,c:\Users\Adjunct\Documents\GitHub\THINCLabTestRepo\Tasks\taskScripts//resources//ZeroBack_Task//stimuli//triangle.png,,NA,302.1098034000024,304.0165213000146,None,None,,nan,001,1
13,ZeroBack,NoGo,2.0607397459703742,0.9392602540296258,c:\Users\Adjunct\Documents\GitHub\THINCLabTestRepo\Tasks\taskScripts//resources//ZeroBack_Task//stimuli//square.png,c:\Users\Adjunct\Documents\GitHub\THINCLabTestRepo\Tasks\taskScripts//resources//ZeroBack_Task//stimuli//triangle.png,,NA,305.22442059998866,307.34558660001494,None,None,,nan,001,1
14,ZeroBack,NoGo,1.8158571159708616,1.1841428840291384,c:\Users\Adjunct\Documents\GitHub\THINCLabTestRepo\Tasks\taskScripts//resources//ZeroBack_Task//stimuli//circle.png,c:\Users\Adjunct\Documents\GitHub\THINCLabTestRepo\Tasks\taskScripts//resources//ZeroBack_Task//stimuli//triangle.png,,NA,308.3122601000359,310.180098300043,None,None,,nan,001,1
15,ZeroBack,NoGo,1.6839294359425434,1.3160705640574566,c:\Users\Adjunct\Documents\GitHub\THINCLabTestRepo\Tasks\taskScripts//resources//ZeroBack_Task//stimuli//triangle.png,c:\Users\Adjunct\Documents\GitHub\THINCLabTestRepo\Tasks\taskScripts//resources//ZeroBack_Task//stimuli//circle.png,,NA,311.39619290002156,313.14682500000345,None,None,,nan,001,1
16,ZeroBack,NoGo,2.3235488460381175,0.6764511539618825,c:\Users\Adjunct\Documents\GitHub\THINCLabTestRepo\Tasks\taskScripts//resources//ZeroBack_Task//stimuli//triangle.png,c:\Users\Adjunct\Documents\GitHub\THINCLabTestRepo\Tasks\taskScripts//resources//ZeroBack_Task//stimuli//square.png,,NA,314.478672600002,316.8466423000209,None,None,,nan,001,1
10,ZeroBack,ZeroBack,2.1904816958034994,3.8095183041965006,c:\Users\Adjunct\Documents\GitHub\THINCLabTestRepo\Tasks\taskScripts//resources//ZeroBack_Task//stimuli//square.png,c:\Users\Adjunct\Documents\GitHub\THINCLabTestRepo\Tasks\taskScripts//resources//ZeroBack_Task//stimuli//triangle.png,c:\Users\Adjunct\Documents\GitHub\THINCLabTestRepo\Tasks\taskScripts//resources//ZeroBack_Task//stimuli//triangle.png,right,317.545290100039,319.83937070000684,right,right,1,0.8690304000047036,001,1
17,ZeroBack,NoGo,2.39801068843723,0.6019893115627699,c:\Users\Adjunct\Documents\GitHub\THINCLabTestRepo\Tasks\taskScripts//resources//ZeroBack_Task//stimuli//triangle.png,c:\Users\Adjunct\Documents\GitHub\THINCLabTestRepo\Tasks\taskScripts//resources//ZeroBack_Task//stimuli//circle.png,,NA,323.7062838000129,326.16310250002425,None,None,,nan,001,1
18,ZeroBack,NoGo,1.8395155670850634,1.1604844329149366,c:\Users\Adjunct\Documents\GitHub\THINCLabTestRepo\Tasks\taskScripts//resources//ZeroBack_Task//stimuli//triangle.png,c:\Users\Adjunct\Documents\GitHub\THINCLabTestRepo\Tasks\taskScripts//resources//ZeroBack_Task//stimuli//circle.png,,NA,326.79479140002513,328.6779511999921,None,None,,nan,001,1
20,ZeroBack,NoGo,2.303718254824354,0.696281745175646,c:\Users\Adjunct\Documents\GitHub\THINCLabTestRepo\Tasks\taskScripts//resources//ZeroBack_Task//stimuli//square.png,c:\Users\Adjunct\Documents\GitHub\THINCLabTestRepo\Tasks\taskScripts//resources//ZeroBack_Task//stimuli//circle.png,,NA,329.8622081000358,332.22845190000953,None,None,,nan,001,1
21,ZeroBack,NoGo,1.5234710065062964,1.4765289934937036,c:\Users\Adjunct\Documents\GitHub\THINCLabTestRepo\Tasks\taskScripts//resources//ZeroBack_Task//stimuli//triangle.png,c:\Users\Adjunct\Documents\GitHub\THINCLabTestRepo\Tasks\taskScripts//resources//ZeroBack_Task//stimuli//circle.png,,NA,332.94538530003047,334.51263940002536,None,None,,nan,001,1
22,ZeroBack,NoGo,2.2664886916406632,0.7335113083593368,c:\Users\Adjunct\Documents\GitHub\THINCLabTestRepo\Tasks\taskScripts//resources//ZeroBack_Task//stimuli//circle.png,c:\Users\Adjunct\Documents\GitHub\THINCLabTestRepo\Tasks\taskScripts//resources//ZeroBack_Task//stimuli//square.png,,NA,336.0110650000279,338.3458543000161,None,None,,nan,001,1
19,ZeroBack,ZeroBack,1.4983673080721192,4.501632691927881,c:\Users\Adjunct\Documents\GitHub\THINCLabTestRepo\Tasks\taskScripts//resources//ZeroBack_Task//stimuli//triangle.png,c:\Users\Adjunct\Documents\GitHub\THINCLabTestRepo\Tasks\taskScripts//resources//ZeroBack_Task//stimuli//circle.png,c:\Users\Adjunct\Documents\GitHub\THINCLabTestRepo\Tasks\taskScripts//resources//ZeroBack_Task//stimuli//triangle.png,left,339.1109533000272,340.66184509999584,left,left,1,0.7504158000228927,001,1
