TrialIndex,Condition,TrialType,fix_duration,stim_duration,stimPicLeft,stimPicRight,stimPicMid,Ans,fixStart,stimStart,keyResp,resp,respCORR,respRT,IDNO,Run
0,OneBack,NoGo,2.423786291824652,0.5762137081753478,c:\Users\Adjunct\Documents\GitHub\THINCLabTestRepo\Tasks\taskScripts//resources//ZeroBack_Task//stimuli//square.png,c:\Users\Adjunct\Documents\GitHub\THINCLabTestRepo\Tasks\taskScripts//resources//ZeroBack_Task//stimuli//circle.png,,NA,45.904012500017416,48.37503530003596,None,None,,nan,001,1
1,OneBack,NoGo,1.7560878170910232,1.2439121829089768,c:\Users\Adjunct\Documents\GitHub\THINCLabTestRepo\Tasks\taskScripts//resources//ZeroBack_Task//stimuli//square.png,c:\Users\Adjunct\Documents\GitHub\THINCLabTestRepo\Tasks\taskScripts//resources//ZeroBack_Task//stimuli//triangle.png,,NA,48.97292229998857,50.79004350001924,None,None,,nan,001,1
3,OneBack,NoGo,2.4171370028277677,0.5828629971722323,c:\Users\Adjunct\Documents\GitHub\THINCLabTestRepo\Tasks\taskScripts//resources//ZeroBack_Task//stimuli//circle.png,c:\Users\Adjunct\Documents\GitHub\THINCLabTestRepo\Tasks\taskScripts//resources//ZeroBack_Task//stimuli//square.png,,NA,52.07001140003558,54.539336399990134,None,None,,nan,001,1
4,OneBack,NoGo,2.2144578796877425,0.7855421203122575,c:\Users\Adjunct\Documents\GitHub\THINCLabTestRepo\Tasks\taskScripts//resources//ZeroBack_Task//stimuli//square.png,c:\Users\Adjunct\Documents\GitHub\THINCLabTestRepo\Tasks\taskScripts//resources//ZeroBack_Task//stimuli//circle.png,,NA,55.1531810000306,57.423803200013936,None,None,,nan,001,1
5,OneBack,NoGo,1.907401507557774,1.092598492442226,c:\Users\Adjunct\Documents\GitHub\THINCLabTestRepo\Tasks\taskScripts//resources//ZeroBack_Task//stimuli//circle.png,c:\Users\Adjunct\Documents\GitHub\THINCLabTestRepo\Tasks\taskScripts//resources//ZeroBack_Task//stimuli//square.png,,NA,58.24000450002495,60.19088800001191,None,None,,nan,001,1
6,OneBack,NoGo,2.342891621470933,0.6571083785290668,c:\Users\Adjunct\Documents\GitHub\THINCLabTestRepo\Tasks\taskScripts//resources//ZeroBack_Task//stimuli//square.png,c:\Users\Adjunct\Documents\GitHub\THINCLabTestRepo\Tasks\taskScripts//resources//ZeroBack_Task//stimuli//circle.png,,NA,61.30652969999937,63.70723679999355,None,None,,nan,001,1
2,OneBack,OneBack,2.116425948579971,3.883574051420029,?,?,c:\Users\Adjunct\Documents\GitHub\THINCLabTestRepo\Tasks\taskScripts//resources//ZeroBack_Task//stimuli//circle.png,right,64.38976540003205,66.53748540004017,left,left,0,2.534762099967338,001,1
7,OneBack,NoGo,1.5238461411030113,1.4761538588969887,c:\Users\Adjunct\Documents\GitHub\THINCLabTestRepo\Tasks\taskScripts//resources//ZeroBack_Task//stimuli//triangle.png,c:\Users\Adjunct\Documents\GitHub\THINCLabTestRepo\Tasks\taskScripts//resources//ZeroBack_Task//stimuli//circle.png,,NA,70.46669430000475,72.05585549998796,None,None,,nan,001,1
9,OneBack,NoGo,2.1039282044989505,0.8960717955010495,c:\Users\Adjunct\Documents\GitHub\THINCLabTestRepo\Tasks\taskScripts//resources//ZeroBack_Task//stimuli//triangle.png,c:\Users\Adjunct\Documents\GitHub\THINCLabTestRepo\Tasks\taskScripts//resources//ZeroBack_Task//stimuli//circle.png,,NA,73.55526689998806,75.70621169998776,None,None,,nan,001,1
10,OneBack,NoGo,1.7911110749064263,1.2088889250935737,c:\Users\Adjunct\Documents\GitHub\THINCLabTestRepo\Tasks\taskScripts//resources//ZeroBack_Task//stimuli//square.png,c:\Users\Adjunct\Documents\GitHub\THINCLabTestRepo\Tasks\taskScripts//resources//ZeroBack_Task//stimuli//triangle.png,,NA,76.62253130000317,78.47325670003192,None,None,,nan,001,1
11,OneBack,NoGo,2.470344734689595,0.5296552653104052,c:\Users\Adjunct\Documents\GitHub\THINCLabTestRepo\Tasks\taskScripts//resources//ZeroBack_Task//stimuli//circle.png,c:\Users\Adjunct\Documents\GitHub\THINCLabTestRepo\Tasks\taskScripts//resources//ZeroBack_Task//stimuli//triangle.png,,NA,79.70500140002696,82.22300639998866,None,None,,nan,001,1
12,OneBack,NoGo,1.587314184036416,1.412685815963584,c:\Users\Adjunct\Documents\GitHub\THINCLabTestRepo\Tasks\taskScripts//resources//ZeroBack_Task//stimuli//square.png,c:\Users\Adjunct\Documents\GitHub\THINCLabTestRepo\Tasks\taskScripts//resources//ZeroBack_Task//stimuli//triangle.png,,NA,82.77230230002897,84.42211670003599,None,None,,nan,001,1
8,OneBack,OneBack,2.0649690464828474,3.9350309535171526,?,?,c:\Users\Adjunct\Documents\GitHub\THINCLabTestRepo\Tasks\taskScripts//resources//ZeroBack_Task//stimuli//circle.png,right,85.85552430001553,87.95301570004085,None,None,0,nan,001,1
13,OneBack,NoGo,2.110680901392244,0.8893190986077562,c:\Users\Adjunct\Documents\GitHub\THINCLabTestRepo\Tasks\taskScripts//resources//ZeroBack_Task//stimuli//circle.png,c:\Users\Adjunct\Documents\GitHub\THINCLabTestRepo\Tasks\taskScripts//resources//ZeroBack_Task//stimuli//square.png,,NA,91.92108000000007,94.07278059999226,None,None,,nan,001,1
14,OneBack,NoGo,2.104195925705103,0.895804074294897,c:\Users\Adjunct\Documents\GitHub\THINCLabTestRepo\Tasks\taskScripts//resources//ZeroBack_Task//stimuli//circle.png,c:\Users\Adjunct\Documents\GitHub\THINCLabTestRepo\Tasks\taskScripts//resources//ZeroBack_Task//stimuli//triangle.png,,NA,94.98848390002968,97.15549229999306,None,None,,nan,001,1
15,OneBack,NoGo,2.0607397459703742,0.9392602540296258,c:\Users\Adjunct\Documents\GitHub\THINCLabTestRepo\Tasks\taskScripts//resources//ZeroBack_Task//stimuli//square.png,c:\Users\Adjunct\Documents\GitHub\THINCLabTestRepo\Tasks\taskScripts//resources//ZeroBack_Task//stimuli//triangle.png,,NA,98.07168280001497,100.17225310002686,None,None,,nan,001,1
16,OneBack,NoGo,1.8158571159708616,1.1841428840291384,c:\Users\Adjunct\Documents\GitHub\THINCLabTestRepo\Tasks\taskScripts//resources//ZeroBack_Task//stimuli//circle.png,c:\Users\Adjunct\Documents\GitHub\THINCLabTestRepo\Tasks\taskScripts//resources//ZeroBack_Task//stimuli//triangle.png,,NA,101.13742970000021,103.02118159999372,None,None,,nan,001,1
17,OneBack,NoGo,1.6839294359425434,1.3160705640574566,c:\Users\Adjunct\Documents\GitHub\THINCLabTestRepo\Tasks\taskScripts//resources//ZeroBack_Task//stimuli//triangle.png,c:\Users\Adjunct\Documents\GitHub\THINCLabTestRepo\Tasks\taskScripts//resources//ZeroBack_Task//stimuli//circle.png,,NA,104.23807940003462,105.9722960999934,None,None,,nan,001,1
21,OneBack,OneBack,2.1093199434308882,3.8906800565691118,?,?,c:\Users\Adjunct\Documents\GitHub\THINCLabTestRepo\Tasks\taskScripts//resources//ZeroBack_Task//stimuli//circle.png,right,107.32130830001552,109.48521140002413,None,None,0,nan,001,1
18,OneBack,NoGo,2.3235488460381175,0.6764511539618825,c:\Users\Adjunct\Documents\GitHub\THINCLabTestRepo\Tasks\taskScripts//resources//ZeroBack_Task//stimuli//triangle.png,c:\Users\Adjunct\Documents\GitHub\THINCLabTestRepo\Tasks\taskScripts//resources//ZeroBack_Task//stimuli//square.png,,NA,113.40353020001203,115.77154610003345,None,None,,nan,001,1
19,OneBack,NoGo,2.39801068843723,0.6019893115627699,c:\Users\Adjunct\Documents\GitHub\THINCLabTestRepo\Tasks\taskScripts//resources//ZeroBack_Task//stimuli//triangle.png,c:\Users\Adjunct\Documents\GitHub\THINCLabTestRepo\Tasks\taskScripts//resources//ZeroBack_Task//stimuli//circle.png,,NA,116.47010010003578,118.93721810000716,None,None,,nan,001,1
20,OneBack,NoGo,1.8395155670850634,1.1604844329149366,c:\Users\Adjunct\Documents\GitHub\THINCLabTestRepo\Tasks\taskScripts//resources//ZeroBack_Task//stimuli//triangle.png,c:\Users\Adjunct\Documents\GitHub\THINCLabTestRepo\Tasks\taskScripts//resources//ZeroBack_Task//stimuli//circle.png,,NA,119.57077480002772,121.45433330000378,None,None,,nan,001,1
22,OneBack,NoGo,2.31452315132937,0.6854768486706302,c:\Users\Adjunct\Documents\GitHub\THINCLabTestRepo\Tasks\taskScripts//resources//ZeroBack_Task//stimuli//square.png,c:\Users\Adjunct\Documents\GitHub\THINCLabTestRepo\Tasks\taskScripts//resources//ZeroBack_Task//stimuli//triangle.png,,NA,122.63734660000773,125.00701030000346,None,None,,nan,001,1
