TrialIndex,Condition,TrialType,fix_duration,stim_duration,stimPicLeft,stimPicRight,stimPicMid,Ans,fixStart,stimStart,keyResp,resp,respCORR,respRT,IDNO,Run
0,ZeroBack,NoGo,1.7550690257394217,1.2449309742605783,c:\Users\Ian\Documents\GitHub\THINCLabTestRepo\Tasks\taskScripts//resources//ZeroBack_Task//stimuli//triangle.png,c:\Users\Ian\Documents\GitHub\THINCLabTestRepo\Tasks\taskScripts//resources//ZeroBack_Task//stimuli//square.png,,NA,5.9335464000178035,7.747626700002002,None,None,,nan,001,1
1,ZeroBack,NoGo,1.9722452435761166,1.0277547564238834,c:\Users\Ian\Documents\GitHub\THINCLabTestRepo\Tasks\taskScripts//resources//ZeroBack_Task//stimuli//triangle.png,c:\Users\Ian\Documents\GitHub\THINCLabTestRepo\Tasks\taskScripts//resources//ZeroBack_Task//stimuli//circle.png,,NA,9.002938899997389,11.011868600005982,None,None,,nan,001,1
2,ZeroBack,NoGo,1.593859586774235,1.406140413225765,c:\Users\Ian\Documents\GitHub\THINCLabTestRepo\Tasks\taskScripts//resources//ZeroBack_Task//stimuli//square.png,c:\Users\Ian\Documents\GitHub\THINCLabTestRepo\Tasks\taskScripts//resources//ZeroBack_Task//stimuli//triangle.png,,NA,12.050086500006728,13.678012900025351,None,None,,nan,001,1
3,ZeroBack,ZeroBack,1.9111569944278903,4.08884300557211,c:\Users\Ian\Documents\GitHub\THINCLabTestRepo\Tasks\taskScripts//resources//ZeroBack_Task//stimuli//square.png,c:\Users\Ian\Documents\GitHub\THINCLabTestRepo\Tasks\taskScripts//resources//ZeroBack_Task//stimuli//circle.png,c:\Users\Ian\Documents\GitHub\THINCLabTestRepo\Tasks\taskScripts//resources//ZeroBack_Task//stimuli//square.png,left,15.092426300019724,17.048456100019393,left,left,1,2.7550658999825828,001,1
4,ZeroBack,NoGo,2.0911534350013037,0.9088465649986963,c:\Users\Ian\Documents\GitHub\THINCLabTestRepo\Tasks\taskScripts//resources//ZeroBack_Task//stimuli//triangle.png,c:\Users\Ian\Documents\GitHub\THINCLabTestRepo\Tasks\taskScripts//resources//ZeroBack_Task//stimuli//square.png,,NA,21.15559900001972,23.275393600022653,None,None,,nan,001,1
5,ZeroBack,NoGo,1.5305899830335536,1.4694100169664464,c:\Users\Ian\Documents\GitHub\THINCLabTestRepo\Tasks\taskScripts//resources//ZeroBack_Task//stimuli//circle.png,c:\Users\Ian\Documents\GitHub\THINCLabTestRepo\Tasks\taskScripts//resources//ZeroBack_Task//stimuli//square.png,,NA,24.197377200005576,25.76165320002474,None,None,,nan,001,1
6,ZeroBack,NoGo,2.4391491627785107,0.5608508372214893,c:\Users\Ian\Documents\GitHub\THINCLabTestRepo\Tasks\taskScripts//resources//ZeroBack_Task//stimuli//square.png,c:\Users\Ian\Documents\GitHub\THINCLabTestRepo\Tasks\taskScripts//resources//ZeroBack_Task//stimuli//triangle.png,,NA,27.23785180001869,29.71349370002281,None,None,,nan,001,1
7,ZeroBack,NoGo,2.4690406502940996,0.5309593497059004,c:\Users\Ian\Documents\GitHub\THINCLabTestRepo\Tasks\taskScripts//resources//ZeroBack_Task//stimuli//circle.png,c:\Users\Ian\Documents\GitHub\THINCLabTestRepo\Tasks\taskScripts//resources//ZeroBack_Task//stimuli//square.png,,NA,30.28799130002153,32.78941130000749,None,None,,nan,001,1
8,ZeroBack,NoGo,2.0276294143623983,0.9723705856376017,c:\Users\Ian\Documents\GitHub\THINCLabTestRepo\Tasks\taskScripts//resources//ZeroBack_Task//stimuli//square.png,c:\Users\Ian\Documents\GitHub\THINCLabTestRepo\Tasks\taskScripts//resources//ZeroBack_Task//stimuli//circle.png,,NA,33.328410500020254,35.386984300013864,None,None,,nan,001,1
9,ZeroBack,NoGo,1.8457004147087526,1.1542995852912474,c:\Users\Ian\Documents\GitHub\THINCLabTestRepo\Tasks\taskScripts//resources//ZeroBack_Task//stimuli//circle.png,c:\Users\Ian\Documents\GitHub\THINCLabTestRepo\Tasks\taskScripts//resources//ZeroBack_Task//stimuli//square.png,,NA,36.37003210000694,38.248072200018214,None,None,,nan,001,1
10,ZeroBack,NoGo,2.2609477375418203,0.7390522624581797,c:\Users\Ian\Documents\GitHub\THINCLabTestRepo\Tasks\taskScripts//resources//ZeroBack_Task//stimuli//square.png,c:\Users\Ian\Documents\GitHub\THINCLabTestRepo\Tasks\taskScripts//resources//ZeroBack_Task//stimuli//circle.png,,NA,39.412318600021536,41.69993120001163,None,None,,nan,001,1
11,ZeroBack,NoGo,1.9161799388943461,1.0838200611056539,c:\Users\Ian\Documents\GitHub\THINCLabTestRepo\Tasks\taskScripts//resources//ZeroBack_Task//stimuli//triangle.png,c:\Users\Ian\Documents\GitHub\THINCLabTestRepo\Tasks\taskScripts//resources//ZeroBack_Task//stimuli//square.png,,NA,42.447282900015125,44.39451320000808,None,None,,nan,001,1
12,ZeroBack,NoGo,1.6859062658947177,1.3140937341052823,c:\Users\Ian\Documents\GitHub\THINCLabTestRepo\Tasks\taskScripts//resources//ZeroBack_Task//stimuli//square.png,c:\Users\Ian\Documents\GitHub\THINCLabTestRepo\Tasks\taskScripts//resources//ZeroBack_Task//stimuli//triangle.png,,NA,45.488618100003805,47.20680740001262,None,None,,nan,001,1
13,ZeroBack,NoGo,1.6208899598058064,1.3791100401941936,c:\Users\Ian\Documents\GitHub\THINCLabTestRepo\Tasks\taskScripts//resources//ZeroBack_Task//stimuli//square.png,c:\Users\Ian\Documents\GitHub\THINCLabTestRepo\Tasks\taskScripts//resources//ZeroBack_Task//stimuli//triangle.png,,NA,48.530273400014266,50.177503300015815,None,None,,nan,001,1
14,ZeroBack,NoGo,1.8033685109329176,1.1966314890670824,c:\Users\Ian\Documents\GitHub\THINCLabTestRepo\Tasks\taskScripts//resources//ZeroBack_Task//stimuli//triangle.png,c:\Users\Ian\Documents\GitHub\THINCLabTestRepo\Tasks\taskScripts//resources//ZeroBack_Task//stimuli//square.png,,NA,51.56508270002087,53.40097030001925,None,None,,nan,001,1
15,ZeroBack,NoGo,2.3461974184283125,0.6538025815716875,c:\Users\Ian\Documents\GitHub\THINCLabTestRepo\Tasks\taskScripts//resources//ZeroBack_Task//stimuli//triangle.png,c:\Users\Ian\Documents\GitHub\THINCLabTestRepo\Tasks\taskScripts//resources//ZeroBack_Task//stimuli//square.png,,NA,54.606380700017326,56.98304500000086,None,None,,nan,001,1
16,ZeroBack,NoGo,2.0890022579825516,0.9109977420174484,c:\Users\Ian\Documents\GitHub\THINCLabTestRepo\Tasks\taskScripts//resources//ZeroBack_Task//stimuli//triangle.png,c:\Users\Ian\Documents\GitHub\THINCLabTestRepo\Tasks\taskScripts//resources//ZeroBack_Task//stimuli//square.png,,NA,57.64808840001933,59.76814070000546,None,None,,nan,001,1
17,ZeroBack,NoGo,1.7427399735430678,1.2572600264569322,c:\Users\Ian\Documents\GitHub\THINCLabTestRepo\Tasks\taskScripts//resources//ZeroBack_Task//stimuli//circle.png,c:\Users\Ian\Documents\GitHub\THINCLabTestRepo\Tasks\taskScripts//resources//ZeroBack_Task//stimuli//square.png,,NA,60.69052480001119,62.46374060001108,None,None,,nan,001,1
18,ZeroBack,NoGo,2.164743521608467,0.8352564783915328,c:\Users\Ian\Documents\GitHub\THINCLabTestRepo\Tasks\taskScripts//resources//ZeroBack_Task//stimuli//circle.png,c:\Users\Ian\Documents\GitHub\THINCLabTestRepo\Tasks\taskScripts//resources//ZeroBack_Task//stimuli//triangle.png,,NA,63.732288800005335,65.92894170002546,None,None,,nan,001,1
19,ZeroBack,NoGo,2.1637578048439807,0.8362421951560193,c:\Users\Ian\Documents\GitHub\THINCLabTestRepo\Tasks\taskScripts//resources//ZeroBack_Task//stimuli//square.png,c:\Users\Ian\Documents\GitHub\THINCLabTestRepo\Tasks\taskScripts//resources//ZeroBack_Task//stimuli//triangle.png,,NA,66.77374830000917,68.9636187000142,None,None,,nan,001,1
20,ZeroBack,NoGo,2.020938417613145,0.9790615823868549,c:\Users\Ian\Documents\GitHub\THINCLabTestRepo\Tasks\taskScripts//resources//ZeroBack_Task//stimuli//triangle.png,c:\Users\Ian\Documents\GitHub\THINCLabTestRepo\Tasks\taskScripts//resources//ZeroBack_Task//stimuli//circle.png,,NA,69.8088773000054,71.85989880000125,None,None,,nan,001,1
21,ZeroBack,NoGo,1.9896935204622581,1.0103064795377419,c:\Users\Ian\Documents\GitHub\THINCLabTestRepo\Tasks\taskScripts//resources//ZeroBack_Task//stimuli//triangle.png,c:\Users\Ian\Documents\GitHub\THINCLabTestRepo\Tasks\taskScripts//resources//ZeroBack_Task//stimuli//square.png,,NA,72.85125880001578,74.87337190000108,None,None,,nan,001,1
22,ZeroBack,NoGo,1.5434872903565275,1.4565127096434725,c:\Users\Ian\Documents\GitHub\THINCLabTestRepo\Tasks\taskScripts//resources//ZeroBack_Task//stimuli//circle.png,c:\Users\Ian\Documents\GitHub\THINCLabTestRepo\Tasks\taskScripts//resources//ZeroBack_Task//stimuli//square.png,,NA,75.89173110001138,77.47057080001105,None,None,,nan,001,1
